# Onda Corporation
# Hydrophone Calibration Data
# 
Calibration_DATE	28-Apr-2022
# 
# Hydrophone description
HYD_MFG	Onda
HYD_MODEL	HNR
HYD_APERTURE_NOM_UM	0500
HYD_SN	2168
HYD_POLARITY	Positive
# 
# External preamplifier description
AMP_MFG	NONE
AMP_MODEL	NONE
AMP_SN	NONE
AMP_GAIN_NOM_DB	NONE
AMP_BW_MHZ	NONE
AMP_OUTPUT_IMP_NOM_OHMS	NONE
# 
# Cable/adaptor between hydrophone and preamplifier
CA_BWT_HYD_AMP	NONE 
# 
# Environment
ELECTRICAL_LOAD	OpenCircuit
WATER_TEMP_DEGC	23.5
WATER_RESISTIVITY_MOHMS-CM	6.0
#
# Calibration data
# Freq(MHz) Sens(dB re. 1V/uPa) Sens(V/Pa) Sens(V^2cm^2/W) Cap(pF)
#
DATA_FIELDS	5
DATA_FIELD	FREQ_MHz
DATA_FIELD	SENS_DB
DATA_FIELD	SENS_VPERPA
DATA_FIELD	SENS_V2CM2PERW
DATA_FIELD	CAP_PF
# End of file header
HEADER_END	0
 0.250	 -254.05	  1.984E-007	5.905E-004	    187.855
 0.300	 -252.91	  2.261E-007	7.669E-004	    187.730
 0.350	 -252.56	  2.354E-007	8.312E-004	    187.609
 0.400	 -251.73	  2.590E-007	1.006E-003	    187.492
 0.450	 -251.63	  2.621E-007	1.031E-003	    187.378
 0.500	 -251.27	  2.733E-007	1.120E-003	    187.268
 0.550	 -251.35	  2.708E-007	1.100E-003	    187.162
 0.600	 -251.35	  2.708E-007	1.100E-003	    187.059
 0.650	 -251.40	  2.691E-007	1.086E-003	    186.960
 0.700	 -251.55	  2.645E-007	1.049E-003	    186.865
 0.750	 -251.80	  2.569E-007	9.901E-004	    186.773
 0.800	 -252.00	  2.511E-007	9.457E-004	    186.684
 0.850	 -252.36	  2.411E-007	8.720E-004	    186.599
 0.900	 -252.70	  2.318E-007	8.061E-004	    186.517
 0.950	 -253.15	  2.201E-007	7.266E-004	    186.439
 1.000	 -253.65	  2.077E-007	6.470E-004	    186.364
 1.050	 -254.49	  1.886E-007	5.333E-004	    186.293
 1.100	 -255.27	  1.724E-007	4.457E-004	    186.224
 1.150	 -255.63	  1.654E-007	4.104E-004	    186.159
 1.200	 -256.00	  1.585E-007	3.769E-004	    186.097
 1.250	 -256.15	  1.558E-007	3.641E-004	    186.038
 1.300	 -256.03	  1.580E-007	3.745E-004	    185.983
 1.350	 -256.00	  1.585E-007	3.766E-004	    185.930
 1.400	 -255.64	  1.652E-007	4.095E-004	    185.881
 1.450	 -255.43	  1.692E-007	4.295E-004	    185.834
 1.500	 -255.24	  1.730E-007	4.490E-004	    185.791
 1.550	 -254.84	  1.811E-007	4.917E-004	    185.751
 1.600	 -254.49	  1.886E-007	5.334E-004	    185.713
 1.650	 -254.43	  1.898E-007	5.403E-004	    185.678
 1.700	 -254.22	  1.946E-007	5.682E-004	    185.646
 1.750	 -253.98	  2.000E-007	6.000E-004	    185.617
 1.800	 -253.85	  2.030E-007	6.184E-004	    185.591
 1.850	 -253.62	  2.084E-007	6.514E-004	    185.568
 1.900	 -253.53	  2.107E-007	6.656E-004	    185.547
 1.950	 -253.67	  2.073E-007	6.448E-004	    185.530
 2.000	 -253.91	  2.016E-007	6.095E-004	    185.515
 2.050	 -254.28	  1.932E-007	5.596E-004	    185.501
 2.100	 -254.56	  1.872E-007	5.254E-004	    185.491
 2.150	 -254.42	  1.901E-007	5.422E-004	    185.484
 2.200	 -254.22	  1.946E-007	5.681E-004	    185.479
 2.250	 -254.00	  1.996E-007	5.975E-004	    185.476
 2.300	 -253.94	  2.009E-007	6.055E-004	    185.477
 2.350	 -253.95	  2.007E-007	6.040E-004	    185.479
 2.400	 -253.95	  2.007E-007	6.043E-004	    185.484
 2.450	 -254.04	  1.986E-007	5.916E-004	    185.492
 2.500	 -254.10	  1.973E-007	5.838E-004	    185.501
 2.550	 -253.90	  2.019E-007	6.114E-004	    185.514
 2.600	 -253.90	  2.019E-007	6.117E-004	    185.528
 2.650	 -253.78	  2.047E-007	6.283E-004	    185.545
 2.700	 -253.71	  2.064E-007	6.391E-004	    185.564
 2.750	 -253.72	  2.061E-007	6.373E-004	    185.585
 2.800	 -253.71	  2.062E-007	6.378E-004	    185.609
 2.850	 -253.66	  2.076E-007	6.462E-004	    185.635
 2.900	 -253.58	  2.093E-007	6.574E-004	    185.663
 2.950	 -253.59	  2.092E-007	6.562E-004	    185.693
 3.000	 -253.62	  2.083E-007	6.511E-004	    185.725
 3.050	 -253.71	  2.063E-007	6.386E-004	    185.760
 3.100	 -253.86	  2.028E-007	6.171E-004	    185.796
 3.150	 -253.91	  2.017E-007	6.100E-004	    185.835
 3.200	 -254.06	  1.981E-007	5.889E-004	    185.876
 3.250	 -254.01	  1.993E-007	5.958E-004	    185.918
 3.300	 -253.95	  2.007E-007	6.042E-004	    185.963
 3.350	 -253.87	  2.026E-007	6.154E-004	    186.009
 3.400	 -253.86	  2.027E-007	6.166E-004	    186.058
 3.450	 -253.89	  2.021E-007	6.127E-004	    186.109
 3.500	 -253.90	  2.019E-007	6.117E-004	    186.161
 3.550	 -253.90	  2.018E-007	6.108E-004	    186.215
 3.600	 -253.98	  1.999E-007	5.992E-004	    186.271
 3.650	 -254.06	  1.982E-007	5.895E-004	    186.329
 3.700	 -253.99	  1.997E-007	5.980E-004	    186.389
 3.750	 -254.08	  1.977E-007	5.864E-004	    186.451
 3.800	 -253.91	  2.016E-007	6.099E-004	    186.514
 3.850	 -253.98	  2.000E-007	5.998E-004	    186.579
 3.900	 -253.93	  2.011E-007	6.066E-004	    186.646
 3.950	 -253.80	  2.042E-007	6.254E-004	    186.715
 4.000	 -253.70	  2.065E-007	6.398E-004	    186.785
 4.050	 -253.61	  2.086E-007	6.529E-004	    186.857
 4.100	 -253.51	  2.111E-007	6.684E-004	    186.931
 4.150	 -253.43	  2.132E-007	6.816E-004	    187.006
 4.200	 -253.42	  2.134E-007	6.831E-004	    187.083
 4.250	 -253.41	  2.136E-007	6.841E-004	    187.162
 4.300	 -253.45	  2.126E-007	6.780E-004	    187.242
 4.350	 -253.65	  2.078E-007	6.475E-004	    187.324
 4.400	 -253.68	  2.070E-007	6.427E-004	    187.407
 4.450	 -253.70	  2.065E-007	6.395E-004	    187.492
 4.500	 -253.60	  2.089E-007	6.543E-004	    187.579
 4.550	 -253.52	  2.110E-007	6.676E-004	    187.667
 4.600	 -253.48	  2.119E-007	6.733E-004	    187.756
 4.650	 -253.31	  2.161E-007	7.005E-004	    187.847
 4.700	 -253.22	  2.183E-007	7.150E-004	    187.940
 4.750	 -253.22	  2.183E-007	7.147E-004	    188.034
 4.800	 -253.15	  2.201E-007	7.269E-004	    188.129
 4.850	 -253.21	  2.186E-007	7.171E-004	    188.226
 4.900	 -253.22	  2.182E-007	7.141E-004	    188.324
 4.950	 -253.18	  2.193E-007	7.216E-004	    188.424
 5.000	 -253.20	  2.189E-007	7.188E-004	    188.525
 5.050	 -253.22	  2.182E-007	7.141E-004	    188.627
 5.100	 -253.23	  2.180E-007	7.126E-004	    188.731
 5.150	 -253.30	  2.163E-007	7.018E-004	    188.836
 5.200	 -253.31	  2.159E-007	6.995E-004	    188.943
 5.250	 -253.27	  2.171E-007	7.067E-004	    189.051
 5.300	 -253.19	  2.191E-007	7.198E-004	    189.160
 5.350	 -253.15	  2.202E-007	7.271E-004	    189.270
 5.400	 -253.06	  2.223E-007	7.410E-004	    189.382
 5.450	 -252.98	  2.245E-007	7.559E-004	    189.495
 5.500	 -252.86	  2.276E-007	7.770E-004	    189.610
 5.550	 -252.81	  2.288E-007	7.854E-004	    189.725
 5.600	 -252.72	  2.312E-007	8.018E-004	    189.842
 5.650	 -252.67	  2.325E-007	8.111E-004	    189.961
 5.700	 -252.69	  2.320E-007	8.071E-004	    190.080
 5.750	 -252.66	  2.329E-007	8.135E-004	    190.201
 5.800	 -252.57	  2.353E-007	8.308E-004	    190.323
 5.850	 -252.51	  2.368E-007	8.409E-004	    190.446
 5.900	 -252.49	  2.375E-007	8.459E-004	    190.570
 5.950	 -252.44	  2.388E-007	8.556E-004	    190.696
 6.000	 -252.43	  2.392E-007	8.582E-004	    190.823
 6.050	 -252.42	  2.393E-007	8.588E-004	    190.951
 6.100	 -252.46	  2.383E-007	8.522E-004	    191.080
 6.150	 -252.49	  2.374E-007	8.456E-004	    191.210
 6.200	 -252.50	  2.372E-007	8.441E-004	    191.342
 6.250	 -252.54	  2.361E-007	8.363E-004	    191.475
 6.300	 -252.62	  2.340E-007	8.210E-004	    191.609
 6.350	 -252.70	  2.317E-007	8.054E-004	    191.744
 6.400	 -252.74	  2.308E-007	7.988E-004	    191.880
 6.450	 -252.65	  2.332E-007	8.154E-004	    192.017
 6.500	 -252.57	  2.353E-007	8.302E-004	    192.156
 6.550	 -252.57	  2.352E-007	8.296E-004	    192.296
 6.600	 -252.54	  2.361E-007	8.364E-004	    192.436
 6.650	 -252.50	  2.372E-007	8.440E-004	    192.578
 6.700	 -252.49	  2.374E-007	8.451E-004	    192.722
 6.750	 -252.49	  2.374E-007	8.454E-004	    192.866
 6.800	 -252.50	  2.372E-007	8.436E-004	    193.011
 6.850	 -252.51	  2.369E-007	8.421E-004	    193.158
 6.900	 -252.52	  2.366E-007	8.395E-004	    193.305
 6.950	 -252.48	  2.377E-007	8.478E-004	    193.454
 7.000	 -252.39	  2.401E-007	8.651E-004	    193.604
 7.050	 -252.44	  2.389E-007	8.560E-004	    193.755
 7.100	 -252.45	  2.386E-007	8.536E-004	    193.908
 7.150	 -252.36	  2.411E-007	8.717E-004	    194.061
 7.200	 -252.38	  2.405E-007	8.679E-004	    194.215
 7.250	 -252.39	  2.403E-007	8.659E-004	    194.371
 7.300	 -252.32	  2.421E-007	8.793E-004	    194.528
 7.350	 -252.38	  2.405E-007	8.675E-004	    194.685
 7.400	 -252.39	  2.403E-007	8.660E-004	    194.844
 7.450	 -252.37	  2.407E-007	8.688E-004	    195.005
 7.500	 -252.46	  2.382E-007	8.509E-004	    195.166
 7.550	 -252.46	  2.382E-007	8.508E-004	    195.328
 7.600	 -252.45	  2.385E-007	8.531E-004	    195.492
 7.650	 -252.44	  2.389E-007	8.562E-004	    195.656
 7.700	 -252.47	  2.380E-007	8.500E-004	    195.822
 7.750	 -252.50	  2.370E-007	8.428E-004	    195.989
 7.800	 -252.52	  2.367E-007	8.404E-004	    196.157
 7.850	 -252.53	  2.364E-007	8.381E-004	    196.327
 7.900	 -252.60	  2.345E-007	8.246E-004	    196.497
 7.950	 -252.56	  2.355E-007	8.320E-004	    196.669
 8.000	 -252.49	  2.374E-007	8.453E-004	    196.842
 8.050	 -252.46	  2.383E-007	8.518E-004	    197.015
 8.100	 -252.39	  2.400E-007	8.643E-004	    197.191
 8.150	 -252.35	  2.413E-007	8.736E-004	    197.367
 8.200	 -252.43	  2.391E-007	8.578E-004	    197.544
 8.250	 -252.50	  2.373E-007	8.444E-004	    197.723
 8.300	 -252.48	  2.377E-007	8.474E-004	    197.903
 8.350	 -252.44	  2.389E-007	8.558E-004	    198.084
 8.400	 -252.35	  2.413E-007	8.731E-004	    198.267
 8.450	 -252.35	  2.412E-007	8.730E-004	    198.450
 8.500	 -252.32	  2.420E-007	8.782E-004	    198.635
 8.550	 -252.28	  2.431E-007	8.867E-004	    198.821
 8.600	 -252.27	  2.436E-007	8.902E-004	    199.009
 8.650	 -252.28	  2.432E-007	8.874E-004	    199.197
 8.700	 -252.26	  2.437E-007	8.905E-004	    199.387
 8.750	 -252.30	  2.426E-007	8.829E-004	    199.578
 8.800	 -252.36	  2.410E-007	8.715E-004	    199.771
 8.850	 -252.40	  2.399E-007	8.631E-004	    199.964
 8.900	 -252.33	  2.417E-007	8.762E-004	    200.159
 8.950	 -252.39	  2.403E-007	8.660E-004	    200.356
 9.000	 -252.46	  2.383E-007	8.518E-004	    200.553
 9.050	 -252.49	  2.375E-007	8.464E-004	    200.752
 9.100	 -252.55	  2.356E-007	8.329E-004	    200.953
 9.150	 -252.56	  2.354E-007	8.314E-004	    201.154
 9.200	 -252.64	  2.333E-007	8.166E-004	    201.358
 9.250	 -252.59	  2.348E-007	8.267E-004	    201.562
 9.300	 -252.64	  2.334E-007	8.171E-004	    201.768
 9.350	 -252.62	  2.338E-007	8.203E-004	    201.975
 9.400	 -252.61	  2.341E-007	8.223E-004	    202.184
 9.450	 -252.68	  2.322E-007	8.089E-004	    202.394
 9.500	 -252.62	  2.338E-007	8.199E-004	    202.606
 9.550	 -252.70	  2.317E-007	8.053E-004	    202.819
 9.600	 -252.70	  2.318E-007	8.057E-004	    203.034
 9.650	 -252.73	  2.308E-007	7.993E-004	    203.250
 9.700	 -252.69	  2.321E-007	8.079E-004	    203.467
 9.750	 -252.76	  2.300E-007	7.936E-004	    203.686
 9.800	 -252.87	  2.272E-007	7.746E-004	    203.907
 9.850	 -252.94	  2.253E-007	7.617E-004	    204.129
 9.900	 -253.03	  2.231E-007	7.468E-004	    204.353
 9.950	 -253.03	  2.230E-007	7.460E-004	    204.578
10.000	 -252.92	  2.261E-007	7.666E-004	    204.805
10.050	 -252.73	  2.310E-007	8.002E-004	    205.034
10.100	 -252.85	  2.277E-007	7.776E-004	    205.264
10.150	 -253.05	  2.226E-007	7.430E-004	    205.496
10.200	 -253.23	  2.181E-007	7.135E-004	    205.730
10.250	 -253.35	  2.149E-007	6.930E-004	    205.965
10.300	 -253.37	  2.145E-007	6.902E-004	    206.202
10.350	 -253.22	  2.184E-007	7.154E-004	    206.440
10.400	 -253.33	  2.155E-007	6.964E-004	    206.681
10.450	 -253.30	  2.162E-007	7.009E-004	    206.923
10.500	 -253.35	  2.150E-007	6.932E-004	    207.167
10.550	 -253.40	  2.139E-007	6.862E-004	    207.413
10.600	 -253.37	  2.145E-007	6.900E-004	    207.661
10.650	 -253.46	  2.124E-007	6.767E-004	    207.910
10.700	 -253.53	  2.107E-007	6.658E-004	    208.161
10.750	 -253.59	  2.093E-007	6.569E-004	    208.415
10.800	 -253.61	  2.086E-007	6.526E-004	    208.670
10.850	 -253.57	  2.096E-007	6.591E-004	    208.927
10.900	 -253.63	  2.081E-007	6.498E-004	    209.186
10.950	 -253.74	  2.057E-007	6.345E-004	    209.447
11.000	 -253.93	  2.010E-007	6.063E-004	    209.710
11.050	 -253.93	  2.011E-007	6.069E-004	    209.975
11.100	 -253.98	  1.999E-007	5.996E-004	    210.242
11.150	 -253.99	  1.997E-007	5.985E-004	    210.511
11.200	 -254.00	  1.996E-007	5.978E-004	    210.782
11.250	 -254.02	  1.990E-007	5.941E-004	    211.056
11.300	 -254.05	  1.984E-007	5.902E-004	    211.331
11.350	 -254.20	  1.950E-007	5.704E-004	    211.609
11.400	 -254.27	  1.935E-007	5.614E-004	    211.889
11.450	 -254.28	  1.933E-007	5.604E-004	    212.171
11.500	 -254.26	  1.936E-007	5.623E-004	    212.455
11.550	 -254.31	  1.924E-007	5.554E-004	    212.742
11.600	 -254.40	  1.905E-007	5.442E-004	    213.030
11.650	 -254.44	  1.897E-007	5.401E-004	    213.322
11.700	 -254.53	  1.876E-007	5.280E-004	    213.615
11.750	 -254.68	  1.844E-007	5.102E-004	    213.911
11.800	 -254.67	  1.846E-007	5.114E-004	    214.209
11.850	 -254.58	  1.867E-007	5.229E-004	    214.510
11.900	 -254.87	  1.806E-007	4.893E-004	    214.813
11.950	 -254.88	  1.804E-007	4.879E-004	    215.118
12.000	 -254.85	  1.809E-007	4.908E-004	    215.426
12.050	 -254.86	  1.808E-007	4.904E-004	    215.737
12.100	 -255.03	  1.772E-007	4.712E-004	    216.050
12.150	 -255.10	  1.757E-007	4.632E-004	    216.366
12.200	 -255.14	  1.749E-007	4.588E-004	    216.684
12.250	 -255.19	  1.740E-007	4.543E-004	    217.005
12.300	 -255.23	  1.733E-007	4.503E-004	    217.329
12.350	 -255.24	  1.729E-007	4.484E-004	    217.655
12.400	 -255.33	  1.712E-007	4.398E-004	    217.985
12.450	 -255.44	  1.690E-007	4.283E-004	    218.317
12.500	 -255.50	  1.680E-007	4.231E-004	    218.651
12.550	 -255.64	  1.651E-007	4.089E-004	    218.989
12.600	 -255.67	  1.647E-007	4.067E-004	    219.329
12.650	 -255.82	  1.618E-007	3.926E-004	    219.673
12.700	 -255.93	  1.598E-007	3.832E-004	    220.019
12.750	 -255.89	  1.605E-007	3.863E-004	    220.368
12.800	 -255.94	  1.596E-007	3.823E-004	    220.720
12.850	 -256.08	  1.570E-007	3.699E-004	    221.076
12.900	 -256.10	  1.566E-007	3.680E-004	    221.434
12.950	 -256.04	  1.578E-007	3.736E-004	    221.795
13.000	 -256.04	  1.577E-007	3.732E-004	    222.160
13.050	 -256.11	  1.565E-007	3.675E-004	    222.528
13.100	 -256.46	  1.503E-007	3.389E-004	    222.898
13.150	 -256.35	  1.522E-007	3.476E-004	    223.273
13.200	 -256.35	  1.523E-007	3.478E-004	    223.650
13.250	 -256.60	  1.479E-007	3.281E-004	    224.031
13.300	 -256.50	  1.496E-007	3.355E-004	    224.415
13.350	 -256.68	  1.466E-007	3.224E-004	    224.802
13.400	 -256.82	  1.442E-007	3.119E-004	    225.193
13.450	 -256.89	  1.430E-007	3.068E-004	    225.587
13.500	 -256.80	  1.445E-007	3.131E-004	    225.985
13.550	 -256.97	  1.417E-007	3.012E-004	    226.386
13.600	 -256.97	  1.417E-007	3.012E-004	    226.791
13.650	 -256.99	  1.414E-007	3.000E-004	    227.200
13.700	 -257.11	  1.395E-007	2.920E-004	    227.612
13.750	 -257.19	  1.383E-007	2.868E-004	    228.028
13.800	 -257.38	  1.352E-007	2.740E-004	    228.447
13.850	 -257.32	  1.361E-007	2.780E-004	    228.870
13.900	 -257.44	  1.343E-007	2.707E-004	    229.297
13.950	 -257.59	  1.320E-007	2.613E-004	    229.728
14.000	 -257.82	  1.285E-007	2.477E-004	    230.163
14.050	 -257.76	  1.295E-007	2.515E-004	    230.602
14.100	 -257.90	  1.273E-007	2.431E-004	    231.044
14.150	 -257.95	  1.267E-007	2.406E-004	    231.491
14.200	 -257.85	  1.281E-007	2.462E-004	    231.941
14.250	 -257.93	  1.269E-007	2.415E-004	    232.396
14.300	 -257.97	  1.263E-007	2.392E-004	    232.855
14.350	 -257.91	  1.271E-007	2.425E-004	    233.318
14.400	 -257.95	  1.267E-007	2.406E-004	    233.785
14.450	 -258.04	  1.253E-007	2.354E-004	    234.257
14.500	 -258.14	  1.239E-007	2.303E-004	    234.733
14.550	 -257.93	  1.269E-007	2.414E-004	    235.213
14.600	 -258.01	  1.257E-007	2.370E-004	    235.697
14.650	 -258.18	  1.232E-007	2.278E-004	    236.186
14.700	 -258.26	  1.221E-007	2.237E-004	    236.679
14.750	 -258.45	  1.195E-007	2.141E-004	    237.177
14.800	 -258.62	  1.172E-007	2.059E-004	    237.680
14.850	 -258.61	  1.173E-007	2.064E-004	    238.187
14.900	 -258.79	  1.150E-007	1.983E-004	    238.698
14.950	 -258.92	  1.132E-007	1.923E-004	    239.214
15.000	 -259.08	  1.112E-007	1.854E-004	    239.735
15.050	 -259.08	  1.112E-007	1.853E-004	    240.261
15.100	 -258.98	  1.125E-007	1.899E-004	    240.792
15.150	 -258.85	  1.141E-007	1.954E-004	    241.327
15.200	 -258.99	  1.124E-007	1.894E-004	    241.868
15.250	 -259.03	  1.118E-007	1.875E-004	    242.413
15.300	 -258.96	  1.127E-007	1.905E-004	    242.964
15.350	 -259.04	  1.117E-007	1.870E-004	    243.519
15.400	 -259.05	  1.116E-007	1.867E-004	    244.080
15.450	 -259.16	  1.102E-007	1.820E-004	    244.646
15.500	 -259.23	  1.093E-007	1.793E-004	    245.217
15.550	 -259.09	  1.110E-007	1.848E-004	    245.793
15.600	 -259.15	  1.102E-007	1.823E-004	    246.375
15.650	 -259.27	  1.087E-007	1.773E-004	    246.962
15.700	 -259.34	  1.078E-007	1.744E-004	    247.554
15.750	 -259.38	  1.074E-007	1.731E-004	    248.152
15.800	 -259.41	  1.070E-007	1.719E-004	    248.755
15.850	 -259.43	  1.067E-007	1.709E-004	    249.364
15.900	 -259.51	  1.058E-007	1.678E-004	    249.978
15.950	 -259.53	  1.055E-007	1.670E-004	    250.598
16.000	 -259.62	  1.045E-007	1.638E-004	    251.224
16.050	 -259.70	  1.035E-007	1.608E-004	    251.856
16.100	 -259.79	  1.024E-007	1.573E-004	    252.493
16.150	 -259.84	  1.018E-007	1.555E-004	    253.136
16.200	 -259.99	  1.001E-007	1.504E-004	    253.785
16.250	 -260.05	  9.947E-008	1.484E-004	    254.440
16.300	 -260.03	  9.962E-008	1.488E-004	    255.101
16.350	 -259.97	  1.003E-007	1.510E-004	    255.768
16.400	 -260.03	  9.966E-008	1.490E-004	    256.441
16.450	 -260.21	  9.757E-008	1.428E-004	    257.121
16.500	 -260.43	  9.514E-008	1.358E-004	    257.806
16.550	 -260.47	  9.473E-008	1.346E-004	    258.498
16.600	 -260.32	  9.643E-008	1.395E-004	    259.196
16.650	 -260.15	  9.830E-008	1.450E-004	    259.901
16.700	 -260.13	  9.849E-008	1.455E-004	    260.612
16.750	 -260.23	  9.741E-008	1.423E-004	    261.330
16.800	 -260.45	  9.497E-008	1.353E-004	    262.055
16.850	 -260.53	  9.407E-008	1.327E-004	    262.786
16.900	 -260.59	  9.344E-008	1.310E-004	    263.524
16.950	 -260.65	  9.277E-008	1.291E-004	    264.268
17.000	 -260.62	  9.314E-008	1.301E-004	    265.020
17.050	 -260.68	  9.251E-008	1.284E-004	    265.778
17.100	 -260.74	  9.187E-008	1.266E-004	    266.543
17.150	 -260.80	  9.121E-008	1.248E-004	    267.315
17.200	 -260.80	  9.117E-008	1.247E-004	    268.094
17.250	 -260.80	  9.117E-008	1.247E-004	    268.880
17.300	 -260.90	  9.014E-008	1.219E-004	    269.673
17.350	 -260.87	  9.044E-008	1.227E-004	    270.474
17.400	 -260.98	  8.932E-008	1.197E-004	    271.281
17.450	 -261.09	  8.819E-008	1.167E-004	    272.096
17.500	 -261.12	  8.788E-008	1.158E-004	    272.919
17.550	 -261.13	  8.781E-008	1.157E-004	    273.749
17.600	 -261.14	  8.766E-008	1.153E-004	    274.586
17.650	 -261.18	  8.728E-008	1.143E-004	    275.431
17.700	 -261.19	  8.719E-008	1.140E-004	    276.283
17.750	 -261.12	  8.787E-008	1.158E-004	    277.144
17.800	 -261.16	  8.746E-008	1.147E-004	    278.012
17.850	 -261.22	  8.694E-008	1.134E-004	    278.887
17.900	 -261.28	  8.633E-008	1.118E-004	    279.771
17.950	 -261.28	  8.633E-008	1.118E-004	    280.663
18.000	 -261.24	  8.672E-008	1.128E-004	    281.562
18.050	 -261.10	  8.807E-008	1.164E-004	    282.470
18.100	 -261.14	  8.772E-008	1.154E-004	    283.385
18.150	 -261.11	  8.804E-008	1.163E-004	    284.310
18.200	 -261.28	  8.626E-008	1.116E-004	    285.241
18.250	 -261.27	  8.642E-008	1.120E-004	    286.182
18.300	 -261.17	  8.741E-008	1.146E-004	    287.131
18.350	 -261.11	  8.805E-008	1.163E-004	    288.089
18.400	 -261.23	  8.677E-008	1.129E-004	    289.056
18.450	 -261.35	  8.565E-008	1.100E-004	    290.031
18.500	 -261.37	  8.544E-008	1.095E-004	    291.015
18.550	 -261.31	  8.601E-008	1.110E-004	    292.007
18.600	 -261.28	  8.630E-008	1.117E-004	    293.008
18.650	 -261.37	  8.541E-008	1.094E-004	    294.017
18.700	 -261.33	  8.581E-008	1.105E-004	    295.036
18.750	 -261.32	  8.587E-008	1.106E-004	    296.064
18.800	 -261.38	  8.532E-008	1.092E-004	    297.101
18.850	 -261.46	  8.457E-008	1.073E-004	    298.146
18.900	 -261.38	  8.533E-008	1.092E-004	    299.201
18.950	 -261.36	  8.553E-008	1.097E-004	    300.265
19.000	 -261.54	  8.371E-008	1.051E-004	    301.338
19.050	 -261.62	  8.295E-008	1.032E-004	    302.421
19.100	 -261.54	  8.376E-008	1.052E-004	    303.513
19.150	 -261.60	  8.319E-008	1.038E-004	    304.615
19.200	 -261.51	  8.408E-008	1.060E-004	    305.728
19.250	 -261.96	  7.976E-008	9.542E-005	    306.850
19.300	 -261.84	  8.087E-008	9.810E-005	    307.981
19.350	 -261.68	  8.244E-008	1.020E-004	    309.122
19.400	 -261.48	  8.433E-008	1.067E-004	    310.273
19.450	 -261.38	  8.533E-008	1.092E-004	    311.434
19.500	 -261.36	  8.547E-008	1.096E-004	    312.605
19.550	 -261.39	  8.521E-008	1.089E-004	    313.786
19.600	 -261.51	  8.404E-008	1.059E-004	    314.977
19.650	 -261.61	  8.306E-008	1.035E-004	    316.179
19.700	 -261.57	  8.346E-008	1.045E-004	    317.391
19.750	 -261.43	  8.479E-008	1.078E-004	    318.613
19.800	 -261.30	  8.606E-008	1.111E-004	    319.846
19.850	 -261.34	  8.574E-008	1.103E-004	    321.089
19.900	 -261.41	  8.497E-008	1.083E-004	    321.755
19.950	 -261.48	  8.429E-008	1.066E-004	    322.116
20.000	 -261.56	  8.361E-008	1.048E-004	    322.477
